Subject	Block	Trial	SpeakerPhoto	Logo	Condition	TargetButton	Button_Response	Accuracy	RTs
32	1	1	Speaker3.jpg	IN00.jpg	mismatching	3	3	1	1145
32	1	2	Speaker2.jpg	IN00.jpg	matching	2	2	1	1109
32	1	3	Speaker5.jpg	IN00.jpg	matching	2	2	1	860
32	1	4	Speaker3.jpg	IN00.jpg	mismatching	3	3	1	798
32	1	5	Speaker3.jpg	IN00.jpg	mismatching	3	3	1	887
32	1	6	Speaker5.jpg	OUT1.jpg	mismatching	3	3	1	1128
32	1	7	Speaker2.jpg	IN00.jpg	matching	2	2	1	878
32	1	8	Speaker1.jpg	IN00.jpg	mismatching	3	3	1	1104
32	1	9	Speaker5.jpg	OUT1.jpg	mismatching	3	3	1	957
32	1	10	Speaker5.jpg	IN00.jpg	matching	2	2	1	785
32	1	11	Speaker1.jpg	OUT1.jpg	matching	2	3	0	945
32	1	12	Speaker3.jpg	IN00.jpg	mismatching	3	3	1	1095
32	1	13	Speaker3.jpg	OUT1.jpg	matching	2	2	1	829
32	1	14	Speaker2.jpg	OUT1.jpg	mismatching	3	3	1	1253
32	1	15	Speaker2.jpg	IN00.jpg	matching	2	2	1	804
32	1	16	Speaker2.jpg	OUT1.jpg	mismatching	3	3	1	1057
32	1	17	Speaker3.jpg	IN00.jpg	mismatching	3	3	1	1054
32	1	18	Speaker1.jpg	OUT1.jpg	matching	2	2	1	1360
32	1	19	Speaker5.jpg	IN00.jpg	matching	2	2	1	834
32	1	20	Speaker3.jpg	OUT1.jpg	matching	2	2	1	875
32	1	21	Speaker2.jpg	IN00.jpg	matching	2	2	1	674
32	1	22	Speaker3.jpg	IN00.jpg	mismatching	3	3	1	861
32	1	23	Speaker2.jpg	OUT1.jpg	mismatching	3	3	1	968
32	1	24	Speaker5.jpg	OUT1.jpg	mismatching	3	2	0	992
32	1	25	Speaker2.jpg	IN00.jpg	matching	2	2	1	844
32	1	26	Speaker5.jpg	IN00.jpg	matching	2	2	1	773
32	1	27	Speaker5.jpg	OUT1.jpg	mismatching	3	3	1	888
32	1	28	Speaker2.jpg	OUT1.jpg	mismatching	3	3	1	1372
32	1	29	Speaker1.jpg	IN00.jpg	mismatching	3	3	1	1184
32	1	30	Speaker3.jpg	OUT1.jpg	matching	2	2	1	1077
32	1	31	Speaker2.jpg	OUT1.jpg	mismatching	3	3	1	1048
32	1	32	Speaker5.jpg	IN00.jpg	matching	2	2	1	817
32	1	33	Speaker3.jpg	OUT1.jpg	matching	2	2	1	972
32	1	34	Speaker2.jpg	OUT1.jpg	mismatching	3	3	1	1872
32	1	35	Speaker2.jpg	IN00.jpg	matching	2	2	1	763
32	1	36	Speaker2.jpg	OUT1.jpg	mismatching	3	3	1	1177
32	1	37	Speaker5.jpg	OUT1.jpg	mismatching	3	3	1	1060
32	1	38	Speaker1.jpg	OUT1.jpg	matching	2	2	1	828
32	1	39	Speaker1.jpg	IN00.jpg	mismatching	3	3	1	1041
32	1	40	Speaker2.jpg	OUT1.jpg	mismatching	3	3	1	841
32	1	41	Speaker2.jpg	OUT1.jpg	mismatching	3	3	1	1246
32	1	42	Speaker3.jpg	OUT1.jpg	matching	2	2	1	822
32	1	43	Speaker1.jpg	IN00.jpg	mismatching	3	3	1	1073
32	1	44	Speaker5.jpg	OUT1.jpg	mismatching	3	3	1	1144
32	1	45	Speaker2.jpg	IN00.jpg	matching	2	2	1	779
32	1	46	Speaker2.jpg	IN00.jpg	matching	2	2	1	649
32	1	47	Speaker1.jpg	OUT1.jpg	matching	2	2	1	1132
32	1	48	Speaker1.jpg	OUT1.jpg	matching	2	2	1	959
32	1	49	Speaker3.jpg	IN00.jpg	mismatching	3	3	1	922
32	1	50	Speaker1.jpg	OUT1.jpg	matching	2	2	1	1140
32	1	51	Speaker3.jpg	IN00.jpg	mismatching	3	2	0	1144
32	1	52	Speaker5.jpg	IN00.jpg	matching	2	2	1	638
32	1	53	Speaker1.jpg	OUT1.jpg	matching	2	2	1	1167
32	1	54	Speaker1.jpg	IN00.jpg	mismatching	3	3	1	1503
32	1	55	Speaker1.jpg	OUT1.jpg	matching	2	2	1	887
32	1	56	Speaker5.jpg	IN00.jpg	matching	2	2	1	654
32	1	57	Speaker3.jpg	IN00.jpg	mismatching	3	3	1	916
32	1	58	Speaker3.jpg	OUT1.jpg	matching	2	2	1	1559
32	1	59	Speaker3.jpg	OUT1.jpg	matching	2	2	1	1603
32	1	60	Speaker1.jpg	IN00.jpg	mismatching	3	3	1	1122
32	1	61	Speaker5.jpg	IN00.jpg	matching	2	2	1	637
32	1	62	Speaker5.jpg	OUT1.jpg	mismatching	3	3	1	1001
32	1	63	Speaker2.jpg	OUT1.jpg	mismatching	3	3	1	965
32	1	64	Speaker2.jpg	IN00.jpg	matching	2	2	1	660
32	1	65	Speaker5.jpg	IN00.jpg	matching	2	2	1	865
32	1	66	Speaker1.jpg	IN00.jpg	mismatching	3	3	1	1244
32	1	67	Speaker3.jpg	OUT1.jpg	matching	2	2	1	956
32	1	68	Speaker3.jpg	OUT1.jpg	matching	2	2	1	813
32	1	69	Speaker1.jpg	OUT1.jpg	matching	2	2	1	1272
32	1	70	Speaker2.jpg	IN00.jpg	matching	2	2	1	817
32	1	71	Speaker3.jpg	OUT1.jpg	matching	2	2	1	950
32	1	72	Speaker1.jpg	OUT1.jpg	matching	2	2	1	1274
32	1	73	Speaker1.jpg	IN00.jpg	mismatching	3	3	1	1196
32	1	74	Speaker5.jpg	OUT1.jpg	mismatching	3	3	1	956
32	1	75	Speaker5.jpg	IN00.jpg	matching	2	2	1	1302
32	1	76	Speaker1.jpg	IN00.jpg	mismatching	3	3	1	1264
32	1	77	Speaker1.jpg	IN00.jpg	mismatching	3	3	1	956
32	1	78	Speaker3.jpg	IN00.jpg	mismatching	3	3	1	839
32	1	79	Speaker5.jpg	OUT1.jpg	mismatching	3	3	1	1152
32	1	80	Speaker5.jpg	OUT1.jpg	mismatching	3	3	1	747
32	2	1	Speaker3.jpg	IN00.jpg	mismatching	3	2	0	656
32	2	2	Speaker2.jpg	IN00.jpg	matching	2	2	1	682
32	2	3	Speaker1.jpg	OUT1.jpg	matching	2	2	1	998
32	2	4	Speaker3.jpg	OUT1.jpg	matching	2	2	1	855
32	2	5	Speaker1.jpg	IN00.jpg	mismatching	3	3	1	842
32	2	6	Speaker2.jpg	IN00.jpg	matching	2	2	1	815
32	2	7	Speaker5.jpg	OUT1.jpg	mismatching	3	3	1	1736
32	2	8	Speaker5.jpg	IN00.jpg	matching	2	2	1	758
32	2	9	Speaker3.jpg	OUT1.jpg	matching	2	2	1	833
32	2	10	Speaker1.jpg	IN00.jpg	mismatching	3	3	1	1107
32	2	11	Speaker2.jpg	OUT1.jpg	mismatching	3	3	1	1312
32	2	12	Speaker5.jpg	OUT1.jpg	mismatching	3	3	1	998
32	2	13	Speaker1.jpg	IN00.jpg	mismatching	3	3	1	1068
32	2	14	Speaker5.jpg	OUT1.jpg	mismatching	3	3	1	1016
32	2	15	Speaker3.jpg	IN00.jpg	mismatching	3	3	1	1247
32	2	16	Speaker3.jpg	OUT1.jpg	matching	2	2	1	979
32	2	17	Speaker3.jpg	OUT1.jpg	matching	2	2	1	871
32	2	18	Speaker3.jpg	OUT1.jpg	matching	2	2	1	836
32	2	19	Speaker2.jpg	IN00.jpg	matching	2	2	1	720
32	2	20	Speaker1.jpg	IN00.jpg	mismatching	3	3	1	1495
32	2	21	Speaker1.jpg	IN00.jpg	mismatching	3	3	1	831
32	2	22	Speaker2.jpg	IN00.jpg	matching	2	2	1	671
32	2	23	Speaker5.jpg	OUT1.jpg	mismatching	3	3	1	853
32	2	24	Speaker5.jpg	IN00.jpg	matching	2	2	1	753
32	2	25	Speaker1.jpg	IN00.jpg	mismatching	3	3	1	813
32	2	26	Speaker5.jpg	IN00.jpg	matching	2	2	1	1257
32	2	27	Speaker3.jpg	IN00.jpg	mismatching	3	3	1	755
32	2	28	Speaker3.jpg	OUT1.jpg	matching	2	2	1	1403
32	2	29	Speaker5.jpg	IN00.jpg	matching	2	2	1	1048
32	2	30	Speaker3.jpg	IN00.jpg	mismatching	3	3	1	685
32	2	31	Speaker3.jpg	IN00.jpg	mismatching	3	3	1	966
32	2	32	Speaker2.jpg	OUT1.jpg	mismatching	3	3	1	960
32	2	33	Speaker1.jpg	OUT1.jpg	matching	2	2	1	1309
32	2	34	Speaker5.jpg	OUT1.jpg	mismatching	3	3	1	1251
32	2	35	Speaker3.jpg	OUT1.jpg	matching	2	2	1	1271
32	2	36	Speaker2.jpg	OUT1.jpg	mismatching	3	3	1	1129
32	2	37	Speaker5.jpg	OUT1.jpg	mismatching	3	3	1	810
32	2	38	Speaker1.jpg	IN00.jpg	mismatching	3	3	1	1936
32	2	39	Speaker2.jpg	OUT1.jpg	mismatching	3	2	0	1029
32	2	40	Speaker3.jpg	IN00.jpg	mismatching	3	3	1	1261
32	2	41	Speaker5.jpg	OUT1.jpg	mismatching	3	3	1	722
32	2	42	Speaker2.jpg	IN00.jpg	matching	2	2	1	1249
32	2	43	Speaker2.jpg	OUT1.jpg	mismatching	3	3	1	811
32	2	44	Speaker2.jpg	IN00.jpg	matching	2	2	1	1251
32	2	45	Speaker3.jpg	IN00.jpg	mismatching	3	3	1	807
32	2	46	Speaker1.jpg	OUT1.jpg	matching	2	2	1	1014
32	2	47	Speaker1.jpg	OUT1.jpg	matching	2	2	1	861
32	2	48	Speaker5.jpg	IN00.jpg	matching	2	2	1	1429
32	2	49	Speaker3.jpg	IN00.jpg	mismatching	3	3	1	1861
32	2	50	Speaker2.jpg	OUT1.jpg	mismatching	3	3	1	872
32	2	51	Speaker5.jpg	OUT1.jpg	mismatching	3	3	1	848
32	2	52	Speaker3.jpg	OUT1.jpg	matching	2	2	1	835
32	2	53	Speaker2.jpg	IN00.jpg	matching	2	2	1	915
32	2	54	Speaker1.jpg	OUT1.jpg	matching	2	2	1	1236
32	2	55	Speaker2.jpg	OUT1.jpg	mismatching	3	3	1	1832
32	2	56	Speaker5.jpg	IN00.jpg	matching	2	2	1	806
32	2	57	Speaker1.jpg	OUT1.jpg	matching	2	2	1	897
32	2	58	Speaker1.jpg	OUT1.jpg	matching	2	2	1	1255
32	2	59	Speaker2.jpg	OUT1.jpg	mismatching	3	3	1	849
32	2	60	Speaker2.jpg	IN00.jpg	matching	2	2	1	759
32	2	61	Speaker2.jpg	OUT1.jpg	mismatching	3	3	1	924
32	2	62	Speaker1.jpg	OUT1.jpg	matching	2	2	1	832
32	2	63	Speaker3.jpg	IN00.jpg	mismatching	3	3	1	872
32	2	64	Speaker1.jpg	IN00.jpg	mismatching	3	3	1	1036
32	2	65	Speaker1.jpg	IN00.jpg	mismatching	3	3	1	1448
32	2	66	Speaker1.jpg	IN00.jpg	mismatching	3	3	1	623
32	2	67	Speaker2.jpg	OUT1.jpg	mismatching	3	3	1	912
32	2	68	Speaker3.jpg	OUT1.jpg	matching	2	2	1	930
32	2	69	Speaker2.jpg	IN00.jpg	matching	2	2	1	864
32	2	70	Speaker5.jpg	IN00.jpg	matching	2	2	1	766
32	2	71	Speaker5.jpg	IN00.jpg	matching	2	2	1	783
32	2	72	Speaker5.jpg	IN00.jpg	matching	2	2	1	686
32	2	73	Speaker1.jpg	OUT1.jpg	matching	2	2	1	896
32	2	74	Speaker3.jpg	OUT1.jpg	matching	2	2	1	831
32	2	75	Speaker5.jpg	OUT1.jpg	mismatching	3	3	1	1356
32	2	76	Speaker5.jpg	OUT1.jpg	mismatching	3	3	1	906
32	2	77	Speaker1.jpg	OUT1.jpg	matching	2	3	0	1011
32	2	78	Speaker3.jpg	IN00.jpg	mismatching	3	3	1	914
32	2	79	Speaker2.jpg	IN00.jpg	matching	2	2	1	940
32	2	80	Speaker5.jpg	IN00.jpg	matching	2	2	1	666
