Subject	Block	Trial	SpeakerPhoto	Logo	Condition	TargetButton	Button_Response	Accuracy	RTs
8	1	1	Speaker2.jpg	IN00.jpg	mismatching	3	3	1	1015
8	1	2	Speaker1.jpg	OUT1.jpg	matching	2	3	0	1653
8	1	3	Speaker5.jpg	IN00.jpg	matching	2	2	1	1102
8	1	4	Speaker2.jpg	IN00.jpg	mismatching	3	3	1	1465
8	1	5	Speaker1.jpg	OUT1.jpg	matching	2	2	1	1237
8	1	6	Speaker2.jpg	OUT1.jpg	matching	2	2	1	738
8	1	7	Speaker1.jpg	IN00.jpg	mismatching	3	3	1	2076
8	1	8	Speaker3.jpg	IN00.jpg	matching	2	2	1	1392
8	1	9	Speaker3.jpg	IN00.jpg	matching	2	2	1	1015
8	1	10	Speaker1.jpg	IN00.jpg	mismatching	3	3	1	1496
8	1	11	Speaker1.jpg	OUT1.jpg	matching	2	2	1	1061
8	1	12	Speaker1.jpg	OUT1.jpg	matching	2	2	1	1070
8	1	13	Speaker5.jpg	IN00.jpg	matching	2	2	1	1635
8	1	14	Speaker3.jpg	OUT1.jpg	mismatching	3	2	0	1058
8	1	15	Speaker3.jpg	IN00.jpg	matching	2	3	0	1274
8	1	16	Speaker1.jpg	OUT1.jpg	matching	2	2	1	1225
8	1	17	Speaker3.jpg	IN00.jpg	matching	2	2	1	1133
8	1	18	Speaker5.jpg	IN00.jpg	matching	2	2	1	1982
8	1	19	Speaker2.jpg	IN00.jpg	mismatching	3	3	1	1212
8	1	20	Speaker5.jpg	OUT1.jpg	mismatching	3	3	1	1780
8	1	21	Speaker2.jpg	IN00.jpg	mismatching	3	3	1	2173
8	1	22	Speaker2.jpg	IN00.jpg	mismatching	3	3	1	1281
8	1	23	Speaker2.jpg	OUT1.jpg	matching	2	2	1	1850
8	1	24	Speaker1.jpg	OUT1.jpg	matching	2	2	1	1036
8	1	25	Speaker2.jpg	IN00.jpg	mismatching	3	3	1	1041
8	1	26	Speaker2.jpg	OUT1.jpg	matching	2	2	1	1709
8	1	27	Speaker2.jpg	OUT1.jpg	matching	2	2	1	927
8	1	28	Speaker2.jpg	IN00.jpg	mismatching	3	3	1	1076
8	1	29	Speaker3.jpg	OUT1.jpg	mismatching	3	3	1	1187
8	1	30	Speaker2.jpg	OUT1.jpg	matching	2	2	1	1019
8	1	31	Speaker5.jpg	OUT1.jpg	mismatching	3	3	1	1394
8	1	32	Speaker2.jpg	OUT1.jpg	matching	2	2	1	1662
8	1	33	Speaker2.jpg	OUT1.jpg	matching	2	2	1	1119
8	1	34	Speaker5.jpg	IN00.jpg	matching	2	2	1	1471
8	1	35	Speaker3.jpg	OUT1.jpg	mismatching	3	3	1	1800
8	1	36	Speaker2.jpg	OUT1.jpg	matching	2	2	1	1226
8	1	37	Speaker1.jpg	OUT1.jpg	matching	2	2	1	1217
8	1	38	Speaker1.jpg	IN00.jpg	mismatching	3	3	1	1447
8	1	39	Speaker5.jpg	OUT1.jpg	mismatching	3	3	1	1293
8	1	40	Speaker1.jpg	OUT1.jpg	matching	2	2	1	1160
8	1	41	Speaker3.jpg	OUT1.jpg	mismatching	3	3	1	1789
8	1	42	Speaker5.jpg	OUT1.jpg	mismatching	3	3	1	1977
8	1	43	Speaker2.jpg	OUT1.jpg	matching	2	2	1	1450
8	1	44	Speaker1.jpg	IN00.jpg	mismatching	3	3	1	1170
8	1	45	Speaker5.jpg	IN00.jpg	matching	2	3	0	2217
8	1	46	Speaker3.jpg	IN00.jpg	matching	2	2	1	974
8	1	47	Speaker5.jpg	IN00.jpg	matching	2	2	1	1049
8	1	48	Speaker1.jpg	IN00.jpg	mismatching	3	3	1	1050
8	1	49	Speaker5.jpg	OUT1.jpg	mismatching	3	2	0	1110
8	1	50	Speaker5.jpg	OUT1.jpg	mismatching	3	3	1	1500
8	1	51	Speaker5.jpg	OUT1.jpg	mismatching	3	3	1	1214
8	1	52	Speaker1.jpg	IN00.jpg	mismatching	3	3	1	1071
8	1	53	Speaker5.jpg	OUT1.jpg	mismatching	3	3	1	1678
8	1	54	Speaker2.jpg	IN00.jpg	mismatching	3	3	1	1256
8	1	55	Speaker5.jpg	IN00.jpg	matching	2	2	1	1627
8	1	56	Speaker1.jpg	IN00.jpg	mismatching	3	3	1	1438
8	1	57	Speaker5.jpg	IN00.jpg	matching	2	2	1	1291
8	1	58	Speaker1.jpg	IN00.jpg	mismatching	3	3	1	2082
8	1	59	Speaker1.jpg	OUT1.jpg	matching	2	2	1	1462
8	1	60	Speaker2.jpg	IN00.jpg	mismatching	3	0	0	2100000
8	1	61	Speaker3.jpg	IN00.jpg	matching	2	2	1	1142
8	1	62	Speaker5.jpg	IN00.jpg	matching	2	2	1	1940
8	1	63	Speaker3.jpg	IN00.jpg	matching	2	2	1	855
8	1	64	Speaker2.jpg	IN00.jpg	mismatching	3	3	1	1351
8	1	65	Speaker1.jpg	IN00.jpg	mismatching	3	3	1	1462
8	1	66	Speaker1.jpg	IN00.jpg	mismatching	3	3	1	1551
8	1	67	Speaker3.jpg	OUT1.jpg	mismatching	3	3	1	1829
8	1	68	Speaker5.jpg	OUT1.jpg	mismatching	3	3	1	2315
8	1	69	Speaker5.jpg	IN00.jpg	matching	2	2	1	1206
8	1	70	Speaker3.jpg	IN00.jpg	matching	2	2	1	1914
8	1	71	Speaker1.jpg	OUT1.jpg	matching	2	2	1	1140
8	1	72	Speaker5.jpg	OUT1.jpg	mismatching	3	2	0	1325
8	1	73	Speaker3.jpg	OUT1.jpg	mismatching	3	3	1	2130
8	1	74	Speaker3.jpg	IN00.jpg	matching	2	2	1	1200
8	1	75	Speaker2.jpg	OUT1.jpg	matching	2	2	1	1687
8	1	76	Speaker3.jpg	OUT1.jpg	mismatching	3	3	1	1556
8	1	77	Speaker3.jpg	OUT1.jpg	mismatching	3	3	1	2287
8	1	78	Speaker3.jpg	IN00.jpg	matching	2	2	1	899
8	1	79	Speaker3.jpg	OUT1.jpg	mismatching	3	3	1	959
8	1	80	Speaker3.jpg	OUT1.jpg	mismatching	3	3	1	1003
8	2	1	Speaker1.jpg	OUT1.jpg	matching	2	0	0	2100000
8	2	2	Speaker5.jpg	IN00.jpg	matching	2	2	1	1457
8	2	3	Speaker2.jpg	OUT1.jpg	matching	2	2	1	1100
8	2	4	Speaker5.jpg	IN00.jpg	matching	2	2	1	1123
8	2	5	Speaker2.jpg	IN00.jpg	mismatching	3	3	1	1458
8	2	6	Speaker2.jpg	OUT1.jpg	matching	2	2	1	1015
8	2	7	Speaker5.jpg	IN00.jpg	matching	2	2	1	1672
8	2	8	Speaker2.jpg	OUT1.jpg	matching	2	2	1	1130
8	2	9	Speaker1.jpg	OUT1.jpg	matching	2	2	1	1655
8	2	10	Speaker1.jpg	IN00.jpg	mismatching	3	3	1	1630
8	2	11	Speaker1.jpg	IN00.jpg	mismatching	3	3	1	1950
8	2	12	Speaker1.jpg	OUT1.jpg	matching	2	2	1	1493
8	2	13	Speaker1.jpg	OUT1.jpg	matching	2	2	1	2187
8	2	14	Speaker2.jpg	OUT1.jpg	matching	2	2	1	869
8	2	15	Speaker3.jpg	OUT1.jpg	mismatching	3	3	1	962
8	2	16	Speaker2.jpg	OUT1.jpg	matching	2	2	1	1679
8	2	17	Speaker1.jpg	OUT1.jpg	matching	2	2	1	1220
8	2	18	Speaker1.jpg	IN00.jpg	mismatching	3	3	1	1152
8	2	19	Speaker1.jpg	OUT1.jpg	matching	2	2	1	1336
8	2	20	Speaker3.jpg	OUT1.jpg	mismatching	3	3	1	1836
8	2	21	Speaker3.jpg	IN00.jpg	matching	2	2	1	1258
8	2	22	Speaker1.jpg	IN00.jpg	mismatching	3	3	1	1579
8	2	23	Speaker3.jpg	OUT1.jpg	mismatching	3	3	1	1213
8	2	24	Speaker3.jpg	IN00.jpg	matching	2	2	1	1074
8	2	25	Speaker3.jpg	OUT1.jpg	mismatching	3	3	1	1398
8	2	26	Speaker3.jpg	IN00.jpg	matching	2	3	0	2125
8	2	27	Speaker5.jpg	IN00.jpg	matching	2	2	1	782
8	2	28	Speaker1.jpg	IN00.jpg	mismatching	3	2	0	1452
8	2	29	Speaker1.jpg	IN00.jpg	mismatching	3	3	1	963
8	2	30	Speaker1.jpg	OUT1.jpg	matching	2	2	1	1138
8	2	31	Speaker5.jpg	OUT1.jpg	mismatching	3	3	1	1824
8	2	32	Speaker3.jpg	OUT1.jpg	mismatching	3	3	1	2012
8	2	33	Speaker3.jpg	OUT1.jpg	mismatching	3	3	1	1078
8	2	34	Speaker2.jpg	IN00.jpg	mismatching	3	3	1	1527
8	2	35	Speaker1.jpg	OUT1.jpg	matching	2	2	1	1278
8	2	36	Speaker2.jpg	OUT1.jpg	matching	2	2	1	1137
8	2	37	Speaker1.jpg	IN00.jpg	mismatching	3	3	1	1253
8	2	38	Speaker3.jpg	OUT1.jpg	mismatching	3	3	1	1828
8	2	39	Speaker2.jpg	IN00.jpg	mismatching	3	3	1	1041
8	2	40	Speaker2.jpg	OUT1.jpg	matching	2	0	0	2100000
8	2	41	Speaker3.jpg	OUT1.jpg	mismatching	3	0	0	2100000
8	2	42	Speaker2.jpg	IN00.jpg	mismatching	3	3	1	908
8	2	43	Speaker3.jpg	IN00.jpg	matching	2	3	0	1886
8	2	44	Speaker5.jpg	OUT1.jpg	mismatching	3	3	1	1562
8	2	45	Speaker2.jpg	IN00.jpg	mismatching	3	3	1	982
8	2	46	Speaker1.jpg	OUT1.jpg	matching	2	2	1	1841
8	2	47	Speaker5.jpg	OUT1.jpg	mismatching	3	3	1	1820
8	2	48	Speaker3.jpg	IN00.jpg	matching	2	2	1	1916
8	2	49	Speaker3.jpg	IN00.jpg	matching	2	2	1	1443
8	2	50	Speaker5.jpg	OUT1.jpg	mismatching	3	3	1	1553
8	2	51	Speaker5.jpg	IN00.jpg	matching	2	2	1	1320
8	2	52	Speaker5.jpg	IN00.jpg	matching	2	2	1	1555
8	2	53	Speaker1.jpg	IN00.jpg	mismatching	3	3	1	1231
8	2	54	Speaker3.jpg	IN00.jpg	matching	2	2	1	1556
8	2	55	Speaker5.jpg	OUT1.jpg	mismatching	3	3	1	1244
8	2	56	Speaker5.jpg	IN00.jpg	matching	2	3	0	1919
8	2	57	Speaker3.jpg	IN00.jpg	matching	2	2	1	1005
8	2	58	Speaker2.jpg	IN00.jpg	mismatching	3	3	1	911
8	2	59	Speaker5.jpg	IN00.jpg	matching	2	2	1	1228
8	2	60	Speaker2.jpg	IN00.jpg	mismatching	3	3	1	1493
8	2	61	Speaker5.jpg	OUT1.jpg	mismatching	3	3	1	1856
8	2	62	Speaker2.jpg	IN00.jpg	mismatching	3	3	1	1005
8	2	63	Speaker5.jpg	OUT1.jpg	mismatching	3	3	1	2536
8	2	64	Speaker2.jpg	IN00.jpg	mismatching	3	3	1	1335
8	2	65	Speaker5.jpg	OUT1.jpg	mismatching	3	3	1	1186
8	2	66	Speaker2.jpg	OUT1.jpg	matching	2	2	1	2113
8	2	67	Speaker5.jpg	IN00.jpg	matching	2	2	1	1197
8	2	68	Speaker3.jpg	IN00.jpg	matching	2	2	1	1053
8	2	69	Speaker1.jpg	OUT1.jpg	matching	2	2	1	2121
8	2	70	Speaker5.jpg	OUT1.jpg	mismatching	3	3	1	1725
8	2	71	Speaker2.jpg	OUT1.jpg	matching	2	2	1	1730
8	2	72	Speaker3.jpg	OUT1.jpg	mismatching	3	3	1	2224
8	2	73	Speaker2.jpg	OUT1.jpg	matching	2	2	1	883
8	2	74	Speaker2.jpg	IN00.jpg	mismatching	3	3	1	1465
8	2	75	Speaker5.jpg	OUT1.jpg	mismatching	3	3	1	2057
8	2	76	Speaker3.jpg	OUT1.jpg	mismatching	3	3	1	1524
8	2	77	Speaker5.jpg	IN00.jpg	matching	2	3	0	1160
8	2	78	Speaker1.jpg	IN00.jpg	mismatching	3	3	1	1365
8	2	79	Speaker1.jpg	IN00.jpg	mismatching	3	3	1	940
8	2	80	Speaker3.jpg	IN00.jpg	matching	2	2	1	1718
