Subject	Block	Trial	SpeakerPhoto	Logo	Condition	TargetButton	Button_Response	Accuracy	RTs
9	1	1	Speaker2.jpg	OUT1.jpg	matching	2	2	1	890
9	1	2	Speaker1.jpg	IN00.jpg	mismatching	3	3	1	1304
9	1	3	Speaker3.jpg	OUT1.jpg	mismatching	3	3	1	1270
9	1	4	Speaker2.jpg	IN00.jpg	mismatching	3	3	1	1449
9	1	5	Speaker3.jpg	OUT1.jpg	mismatching	3	3	1	1141
9	1	6	Speaker1.jpg	OUT1.jpg	matching	2	2	1	1013
9	1	7	Speaker1.jpg	IN00.jpg	mismatching	3	3	1	1114
9	1	8	Speaker5.jpg	OUT1.jpg	mismatching	3	3	1	1336
9	1	9	Speaker2.jpg	IN00.jpg	mismatching	3	3	1	1107
9	1	10	Speaker2.jpg	OUT1.jpg	matching	2	2	1	978
9	1	11	Speaker3.jpg	IN00.jpg	matching	2	2	1	1046
9	1	12	Speaker5.jpg	OUT1.jpg	mismatching	3	3	1	1292
9	1	13	Speaker5.jpg	OUT1.jpg	mismatching	3	3	1	1260
9	1	14	Speaker3.jpg	OUT1.jpg	mismatching	3	3	1	1149
9	1	15	Speaker5.jpg	IN00.jpg	matching	2	2	1	1026
9	1	16	Speaker1.jpg	IN00.jpg	mismatching	3	3	1	1316
9	1	17	Speaker1.jpg	OUT1.jpg	matching	2	2	1	1016
9	1	18	Speaker3.jpg	IN00.jpg	matching	2	2	1	996
9	1	19	Speaker3.jpg	IN00.jpg	matching	2	2	1	975
9	1	20	Speaker3.jpg	OUT1.jpg	mismatching	3	3	1	1001
9	1	21	Speaker2.jpg	OUT1.jpg	matching	2	2	1	1661
9	1	22	Speaker1.jpg	OUT1.jpg	matching	2	2	1	1024
9	1	23	Speaker2.jpg	OUT1.jpg	matching	2	2	1	1261
9	1	24	Speaker2.jpg	OUT1.jpg	matching	2	2	1	984
9	1	25	Speaker2.jpg	IN00.jpg	mismatching	3	3	1	1187
9	1	26	Speaker3.jpg	OUT1.jpg	mismatching	3	3	1	1342
9	1	27	Speaker1.jpg	IN00.jpg	mismatching	3	3	1	1421
9	1	28	Speaker5.jpg	OUT1.jpg	mismatching	3	3	1	1035
9	1	29	Speaker5.jpg	IN00.jpg	matching	2	2	1	1119
9	1	30	Speaker3.jpg	OUT1.jpg	mismatching	3	3	1	1277
9	1	31	Speaker3.jpg	IN00.jpg	matching	2	2	1	1050
9	1	32	Speaker5.jpg	IN00.jpg	matching	2	2	1	1266
9	1	33	Speaker1.jpg	OUT1.jpg	matching	2	2	1	1317
9	1	34	Speaker5.jpg	OUT1.jpg	mismatching	3	3	1	1107
9	1	35	Speaker1.jpg	OUT1.jpg	matching	2	2	1	1009
9	1	36	Speaker1.jpg	OUT1.jpg	matching	2	2	1	1076
9	1	37	Speaker3.jpg	OUT1.jpg	mismatching	3	3	1	1344
9	1	38	Speaker3.jpg	IN00.jpg	matching	2	2	1	1108
9	1	39	Speaker5.jpg	OUT1.jpg	mismatching	3	3	1	1305
9	1	40	Speaker1.jpg	IN00.jpg	mismatching	3	3	1	1168
9	1	41	Speaker3.jpg	IN00.jpg	matching	2	2	1	1004
9	1	42	Speaker3.jpg	OUT1.jpg	mismatching	3	3	1	1024
9	1	43	Speaker1.jpg	IN00.jpg	mismatching	3	3	1	1093
9	1	44	Speaker2.jpg	OUT1.jpg	matching	2	2	1	1123
9	1	45	Speaker2.jpg	OUT1.jpg	matching	2	2	1	1250
9	1	46	Speaker2.jpg	IN00.jpg	mismatching	3	3	1	1125
9	1	47	Speaker5.jpg	IN00.jpg	matching	2	2	1	1017
9	1	48	Speaker1.jpg	OUT1.jpg	matching	2	2	1	1233
9	1	49	Speaker1.jpg	OUT1.jpg	matching	2	2	1	1036
9	1	50	Speaker1.jpg	IN00.jpg	mismatching	3	3	1	964
9	1	51	Speaker3.jpg	IN00.jpg	matching	2	2	1	1269
9	1	52	Speaker5.jpg	OUT1.jpg	mismatching	3	3	1	1328
9	1	53	Speaker2.jpg	IN00.jpg	mismatching	3	3	1	1315
9	1	54	Speaker2.jpg	OUT1.jpg	matching	2	2	1	956
9	1	55	Speaker5.jpg	IN00.jpg	matching	2	2	1	1015
9	1	56	Speaker1.jpg	IN00.jpg	mismatching	3	3	1	1791
9	1	57	Speaker1.jpg	OUT1.jpg	matching	2	2	1	1307
9	1	58	Speaker3.jpg	IN00.jpg	matching	2	2	1	1018
9	1	59	Speaker1.jpg	IN00.jpg	mismatching	3	3	1	1240
9	1	60	Speaker2.jpg	OUT1.jpg	matching	2	2	1	918
9	1	61	Speaker5.jpg	IN00.jpg	matching	2	2	1	990
9	1	62	Speaker3.jpg	OUT1.jpg	mismatching	3	3	1	996
9	1	63	Speaker5.jpg	IN00.jpg	matching	2	2	1	1048
9	1	64	Speaker5.jpg	OUT1.jpg	mismatching	3	3	1	1200
9	1	65	Speaker5.jpg	OUT1.jpg	mismatching	3	3	1	1149
9	1	66	Speaker2.jpg	OUT1.jpg	matching	2	2	1	1032
9	1	67	Speaker2.jpg	IN00.jpg	mismatching	3	3	1	1064
9	1	68	Speaker5.jpg	IN00.jpg	matching	2	2	1	990
9	1	69	Speaker2.jpg	IN00.jpg	mismatching	3	3	1	1055
9	1	70	Speaker5.jpg	OUT1.jpg	mismatching	3	3	1	1347
9	1	71	Speaker5.jpg	IN00.jpg	matching	2	2	1	969
9	1	72	Speaker3.jpg	IN00.jpg	matching	2	2	1	869
9	1	73	Speaker1.jpg	OUT1.jpg	matching	2	2	1	850
9	1	74	Speaker2.jpg	IN00.jpg	mismatching	3	3	1	997
9	1	75	Speaker2.jpg	IN00.jpg	mismatching	3	3	1	1070
9	1	76	Speaker3.jpg	OUT1.jpg	mismatching	3	3	1	1090
9	1	77	Speaker3.jpg	IN00.jpg	matching	2	2	1	860
9	1	78	Speaker1.jpg	IN00.jpg	mismatching	3	3	1	1059
9	1	79	Speaker2.jpg	IN00.jpg	mismatching	3	3	1	996
9	1	80	Speaker5.jpg	IN00.jpg	matching	2	2	1	1079
9	2	1	Speaker5.jpg	IN00.jpg	matching	2	2	1	989
9	2	2	Speaker2.jpg	IN00.jpg	mismatching	3	3	1	908
9	2	3	Speaker2.jpg	OUT1.jpg	matching	2	2	1	911
9	2	4	Speaker5.jpg	OUT1.jpg	mismatching	3	3	1	1217
9	2	5	Speaker5.jpg	OUT1.jpg	mismatching	3	3	1	992
9	2	6	Speaker3.jpg	OUT1.jpg	mismatching	3	3	1	972
9	2	7	Speaker3.jpg	IN00.jpg	matching	2	2	1	821
9	2	8	Speaker2.jpg	IN00.jpg	mismatching	3	3	1	981
9	2	9	Speaker3.jpg	OUT1.jpg	mismatching	3	3	1	1156
9	2	10	Speaker3.jpg	IN00.jpg	matching	2	2	1	855
9	2	11	Speaker5.jpg	OUT1.jpg	mismatching	3	3	1	1332
9	2	12	Speaker2.jpg	IN00.jpg	mismatching	3	3	1	1048
9	2	13	Speaker3.jpg	OUT1.jpg	mismatching	3	3	1	1007
9	2	14	Speaker1.jpg	IN00.jpg	mismatching	3	3	1	1169
9	2	15	Speaker5.jpg	OUT1.jpg	mismatching	3	3	1	1066
9	2	16	Speaker5.jpg	OUT1.jpg	mismatching	3	3	1	1075
9	2	17	Speaker2.jpg	OUT1.jpg	matching	2	2	1	963
9	2	18	Speaker2.jpg	OUT1.jpg	matching	2	2	1	992
9	2	19	Speaker1.jpg	IN00.jpg	mismatching	3	3	1	1002
9	2	20	Speaker1.jpg	OUT1.jpg	matching	2	2	1	990
9	2	21	Speaker3.jpg	IN00.jpg	matching	2	2	1	1257
9	2	22	Speaker3.jpg	IN00.jpg	matching	2	2	1	1008
9	2	23	Speaker5.jpg	IN00.jpg	matching	2	2	1	1185
9	2	24	Speaker1.jpg	IN00.jpg	mismatching	3	3	1	948
9	2	25	Speaker1.jpg	IN00.jpg	mismatching	3	3	1	1053
9	2	26	Speaker1.jpg	IN00.jpg	mismatching	3	3	1	1035
9	2	27	Speaker1.jpg	OUT1.jpg	matching	2	2	1	845
9	2	28	Speaker2.jpg	OUT1.jpg	matching	2	2	1	954
9	2	29	Speaker3.jpg	OUT1.jpg	mismatching	3	3	1	1092
9	2	30	Speaker5.jpg	IN00.jpg	matching	2	2	1	955
9	2	31	Speaker2.jpg	OUT1.jpg	matching	2	2	1	899
9	2	32	Speaker2.jpg	OUT1.jpg	matching	2	2	1	845
9	2	33	Speaker5.jpg	OUT1.jpg	mismatching	3	3	1	1266
9	2	34	Speaker3.jpg	IN00.jpg	matching	2	2	1	960
9	2	35	Speaker2.jpg	IN00.jpg	mismatching	3	3	1	898
9	2	36	Speaker1.jpg	OUT1.jpg	matching	2	2	1	905
9	2	37	Speaker5.jpg	OUT1.jpg	mismatching	3	3	1	1204
9	2	38	Speaker1.jpg	OUT1.jpg	matching	2	2	1	891
9	2	39	Speaker2.jpg	IN00.jpg	mismatching	3	3	1	925
9	2	40	Speaker1.jpg	IN00.jpg	mismatching	3	3	1	1131
9	2	41	Speaker1.jpg	IN00.jpg	mismatching	3	3	1	1164
9	2	42	Speaker3.jpg	OUT1.jpg	mismatching	3	3	1	1127
9	2	43	Speaker2.jpg	OUT1.jpg	matching	2	2	1	1012
9	2	44	Speaker3.jpg	OUT1.jpg	mismatching	3	3	1	1163
9	2	45	Speaker5.jpg	IN00.jpg	matching	2	2	1	879
9	2	46	Speaker5.jpg	IN00.jpg	matching	2	2	1	914
9	2	47	Speaker1.jpg	OUT1.jpg	matching	2	2	1	1075
9	2	48	Speaker1.jpg	IN00.jpg	mismatching	3	3	1	1199
9	2	49	Speaker5.jpg	IN00.jpg	matching	2	2	1	954
9	2	50	Speaker3.jpg	IN00.jpg	matching	2	2	1	819
9	2	51	Speaker3.jpg	OUT1.jpg	mismatching	3	3	1	981
9	2	52	Speaker5.jpg	OUT1.jpg	mismatching	3	3	1	1095
9	2	53	Speaker2.jpg	OUT1.jpg	matching	2	2	1	911
9	2	54	Speaker2.jpg	IN00.jpg	mismatching	3	3	1	900
9	2	55	Speaker2.jpg	OUT1.jpg	matching	2	2	1	1141
9	2	56	Speaker2.jpg	OUT1.jpg	matching	2	2	1	840
9	2	57	Speaker1.jpg	IN00.jpg	mismatching	3	3	1	1419
9	2	58	Speaker1.jpg	OUT1.jpg	matching	2	2	1	890
9	2	59	Speaker1.jpg	OUT1.jpg	matching	2	2	1	915
9	2	60	Speaker5.jpg	IN00.jpg	matching	2	2	1	880
9	2	61	Speaker2.jpg	IN00.jpg	mismatching	3	3	1	822
9	2	62	Speaker3.jpg	IN00.jpg	matching	2	2	1	880
9	2	63	Speaker3.jpg	IN00.jpg	matching	2	2	1	861
9	2	64	Speaker3.jpg	IN00.jpg	matching	2	2	1	895
9	2	65	Speaker5.jpg	IN00.jpg	matching	2	2	1	867
9	2	66	Speaker5.jpg	OUT1.jpg	mismatching	3	3	1	918
9	2	67	Speaker1.jpg	OUT1.jpg	matching	2	2	1	900
9	2	68	Speaker1.jpg	OUT1.jpg	matching	2	2	1	1034
9	2	69	Speaker2.jpg	IN00.jpg	mismatching	3	3	1	954
9	2	70	Speaker1.jpg	IN00.jpg	mismatching	3	3	1	1027
9	2	71	Speaker5.jpg	IN00.jpg	matching	2	2	1	1306
9	2	72	Speaker2.jpg	IN00.jpg	mismatching	3	3	1	902
9	2	73	Speaker3.jpg	IN00.jpg	matching	2	2	1	949
9	2	74	Speaker5.jpg	OUT1.jpg	mismatching	3	3	1	1166
9	2	75	Speaker3.jpg	OUT1.jpg	mismatching	3	3	1	967
9	2	76	Speaker3.jpg	OUT1.jpg	mismatching	3	3	1	1096
9	2	77	Speaker2.jpg	IN00.jpg	mismatching	3	3	1	1064
9	2	78	Speaker5.jpg	IN00.jpg	matching	2	2	1	885
9	2	79	Speaker1.jpg	OUT1.jpg	matching	2	2	1	1022
9	2	80	Speaker3.jpg	OUT1.jpg	mismatching	3	3	1	946
