Subject	Block	Trial	SpeakerPhoto	Logo	Condition	TargetButton	Button_Response	Accuracy	RTs
35	1	1	Speaker5.jpg	IN00.jpg	matching	2	2	1	806
35	1	2	Speaker3.jpg	IN00.jpg	mismatching	3	3	1	1688
35	1	3	Speaker3.jpg	OUT1.jpg	matching	2	2	1	946
35	1	4	Speaker1.jpg	OUT1.jpg	mismatching	3	3	1	953
35	1	5	Speaker1.jpg	IN00.jpg	matching	2	2	1	846
35	1	6	Speaker1.jpg	IN00.jpg	matching	2	2	1	940
35	1	7	Speaker1.jpg	OUT1.jpg	mismatching	3	3	1	1104
35	1	8	Speaker2.jpg	OUT1.jpg	matching	2	2	1	1066
35	1	9	Speaker3.jpg	OUT1.jpg	matching	2	2	1	1093
35	1	10	Speaker1.jpg	OUT1.jpg	mismatching	3	3	1	1146
35	1	11	Speaker2.jpg	OUT1.jpg	matching	2	2	1	964
35	1	12	Speaker1.jpg	OUT1.jpg	mismatching	3	3	1	1060
35	1	13	Speaker1.jpg	IN00.jpg	matching	2	2	1	1023
35	1	14	Speaker2.jpg	OUT1.jpg	matching	2	2	1	849
35	1	15	Speaker5.jpg	IN00.jpg	matching	2	2	1	960
35	1	16	Speaker1.jpg	IN00.jpg	matching	2	2	1	943
35	1	17	Speaker5.jpg	IN00.jpg	matching	2	2	1	1098
35	1	18	Speaker2.jpg	IN00.jpg	mismatching	3	3	1	1254
35	1	19	Speaker3.jpg	IN00.jpg	mismatching	3	3	1	895
35	1	20	Speaker2.jpg	IN00.jpg	mismatching	3	3	1	1014
35	1	21	Speaker2.jpg	OUT1.jpg	matching	2	2	1	934
35	1	22	Speaker2.jpg	OUT1.jpg	matching	2	2	1	947
35	1	23	Speaker2.jpg	IN00.jpg	mismatching	3	3	1	907
35	1	24	Speaker3.jpg	IN00.jpg	mismatching	3	3	1	768
35	1	25	Speaker1.jpg	OUT1.jpg	mismatching	3	3	1	1210
35	1	26	Speaker5.jpg	OUT1.jpg	mismatching	3	3	1	1439
35	1	27	Speaker5.jpg	IN00.jpg	matching	2	2	1	972
35	1	28	Speaker3.jpg	IN00.jpg	mismatching	3	3	1	763
35	1	29	Speaker2.jpg	OUT1.jpg	matching	2	2	1	1142
35	1	30	Speaker5.jpg	IN00.jpg	matching	2	2	1	984
35	1	31	Speaker2.jpg	IN00.jpg	mismatching	3	3	1	929
35	1	32	Speaker1.jpg	OUT1.jpg	mismatching	3	3	1	1419
35	1	33	Speaker1.jpg	IN00.jpg	matching	2	2	1	1047
35	1	34	Speaker1.jpg	IN00.jpg	matching	2	2	1	1070
35	1	35	Speaker3.jpg	IN00.jpg	mismatching	3	3	1	898
35	1	36	Speaker2.jpg	IN00.jpg	mismatching	3	3	1	1202
35	1	37	Speaker5.jpg	OUT1.jpg	mismatching	3	3	1	1169
35	1	38	Speaker3.jpg	OUT1.jpg	matching	2	2	1	1017
35	1	39	Speaker3.jpg	OUT1.jpg	matching	2	2	1	901
35	1	40	Speaker5.jpg	OUT1.jpg	mismatching	3	3	1	1446
35	1	41	Speaker1.jpg	IN00.jpg	matching	2	2	1	1000
35	1	42	Speaker1.jpg	OUT1.jpg	mismatching	3	3	1	909
35	1	43	Speaker5.jpg	IN00.jpg	matching	2	2	1	988
35	1	44	Speaker2.jpg	IN00.jpg	mismatching	3	3	1	922
35	1	45	Speaker5.jpg	IN00.jpg	matching	2	2	1	844
35	1	46	Speaker2.jpg	IN00.jpg	mismatching	3	0	0	2100000
35	1	47	Speaker5.jpg	OUT1.jpg	mismatching	3	3	1	98
35	1	48	Speaker5.jpg	IN00.jpg	matching	2	2	1	815
35	1	49	Speaker5.jpg	IN00.jpg	matching	2	2	1	954
35	1	50	Speaker2.jpg	OUT1.jpg	matching	2	2	1	1334
35	1	51	Speaker5.jpg	OUT1.jpg	mismatching	3	3	1	1761
35	1	52	Speaker5.jpg	IN00.jpg	matching	2	2	1	886
35	1	53	Speaker2.jpg	OUT1.jpg	matching	2	2	1	987
35	1	54	Speaker3.jpg	IN00.jpg	mismatching	3	3	1	1111
35	1	55	Speaker3.jpg	OUT1.jpg	matching	2	2	1	941
35	1	56	Speaker5.jpg	OUT1.jpg	mismatching	3	3	1	1801
35	1	57	Speaker5.jpg	OUT1.jpg	mismatching	3	3	1	962
35	1	58	Speaker5.jpg	OUT1.jpg	mismatching	3	3	1	1138
35	1	59	Speaker1.jpg	OUT1.jpg	mismatching	3	3	1	1358
35	1	60	Speaker3.jpg	OUT1.jpg	matching	2	2	1	675
35	1	61	Speaker1.jpg	IN00.jpg	matching	2	3	0	808
35	1	62	Speaker3.jpg	OUT1.jpg	matching	2	2	1	1115
35	1	63	Speaker3.jpg	OUT1.jpg	matching	2	2	1	789
35	1	64	Speaker3.jpg	IN00.jpg	mismatching	3	3	1	1142
35	1	65	Speaker1.jpg	IN00.jpg	matching	2	2	1	939
35	1	66	Speaker3.jpg	OUT1.jpg	matching	2	2	1	931
35	1	67	Speaker5.jpg	OUT1.jpg	mismatching	3	3	1	988
35	1	68	Speaker2.jpg	IN00.jpg	mismatching	3	3	1	1180
35	1	69	Speaker2.jpg	OUT1.jpg	matching	2	2	1	822
35	1	70	Speaker2.jpg	IN00.jpg	mismatching	3	3	1	1163
35	1	71	Speaker3.jpg	IN00.jpg	mismatching	3	3	1	887
35	1	72	Speaker1.jpg	OUT1.jpg	mismatching	3	3	1	1228
35	1	73	Speaker2.jpg	IN00.jpg	mismatching	3	3	1	1050
35	1	74	Speaker2.jpg	OUT1.jpg	matching	2	2	1	916
35	1	75	Speaker1.jpg	IN00.jpg	matching	2	2	1	1022
35	1	76	Speaker1.jpg	OUT1.jpg	mismatching	3	3	1	862
35	1	77	Speaker3.jpg	OUT1.jpg	matching	2	2	1	1650
35	1	78	Speaker3.jpg	IN00.jpg	mismatching	3	3	1	723
35	1	79	Speaker3.jpg	IN00.jpg	mismatching	3	3	1	1094
35	1	80	Speaker5.jpg	OUT1.jpg	mismatching	3	3	1	1287
35	2	1	Speaker3.jpg	IN00.jpg	mismatching	3	3	1	1443
35	2	2	Speaker5.jpg	IN00.jpg	matching	2	2	1	897
35	2	3	Speaker2.jpg	OUT1.jpg	matching	2	2	1	905
35	2	4	Speaker1.jpg	OUT1.jpg	mismatching	3	3	1	1038
35	2	5	Speaker5.jpg	OUT1.jpg	mismatching	3	3	1	1122
35	2	6	Speaker1.jpg	IN00.jpg	matching	2	2	1	1008
35	2	7	Speaker3.jpg	IN00.jpg	mismatching	3	3	1	831
35	2	8	Speaker2.jpg	OUT1.jpg	matching	2	2	1	831
35	2	9	Speaker3.jpg	OUT1.jpg	matching	2	2	1	957
35	2	10	Speaker2.jpg	IN00.jpg	mismatching	3	3	1	1172
35	2	11	Speaker2.jpg	OUT1.jpg	matching	2	2	1	1010
35	2	12	Speaker3.jpg	OUT1.jpg	matching	2	2	1	825
35	2	13	Speaker1.jpg	IN00.jpg	matching	2	2	1	1475
35	2	14	Speaker1.jpg	OUT1.jpg	mismatching	3	3	1	940
35	2	15	Speaker2.jpg	OUT1.jpg	matching	2	2	1	840
35	2	16	Speaker5.jpg	IN00.jpg	matching	2	2	1	742
35	2	17	Speaker2.jpg	OUT1.jpg	matching	2	2	1	1157
35	2	18	Speaker1.jpg	IN00.jpg	matching	2	2	1	737
35	2	19	Speaker2.jpg	IN00.jpg	mismatching	3	3	1	901
35	2	20	Speaker3.jpg	OUT1.jpg	matching	2	2	1	810
35	2	21	Speaker3.jpg	OUT1.jpg	matching	2	2	1	985
35	2	22	Speaker5.jpg	OUT1.jpg	mismatching	3	3	1	913
35	2	23	Speaker3.jpg	OUT1.jpg	matching	2	2	1	821
35	2	24	Speaker1.jpg	OUT1.jpg	mismatching	3	3	1	1068
35	2	25	Speaker5.jpg	OUT1.jpg	mismatching	3	3	1	861
35	2	26	Speaker5.jpg	IN00.jpg	matching	2	2	1	1106
35	2	27	Speaker1.jpg	OUT1.jpg	mismatching	3	3	1	1174
35	2	28	Speaker3.jpg	IN00.jpg	mismatching	3	3	1	892
35	2	29	Speaker5.jpg	OUT1.jpg	mismatching	3	3	1	1232
35	2	30	Speaker5.jpg	OUT1.jpg	mismatching	3	3	1	1234
35	2	31	Speaker5.jpg	OUT1.jpg	mismatching	3	3	1	1107
35	2	32	Speaker3.jpg	OUT1.jpg	matching	2	2	1	818
35	2	33	Speaker3.jpg	IN00.jpg	mismatching	3	3	1	818
35	2	34	Speaker1.jpg	OUT1.jpg	mismatching	3	3	1	1024
35	2	35	Speaker5.jpg	IN00.jpg	matching	2	2	1	784
35	2	36	Speaker3.jpg	OUT1.jpg	matching	2	2	1	773
35	2	37	Speaker1.jpg	OUT1.jpg	mismatching	3	3	1	1090
35	2	38	Speaker1.jpg	IN00.jpg	matching	2	2	1	959
35	2	39	Speaker2.jpg	IN00.jpg	mismatching	3	3	1	1146
35	2	40	Speaker2.jpg	IN00.jpg	mismatching	3	3	1	964
35	2	41	Speaker5.jpg	IN00.jpg	matching	2	2	1	1011
35	2	42	Speaker1.jpg	OUT1.jpg	mismatching	3	3	1	1298
35	2	43	Speaker3.jpg	IN00.jpg	mismatching	3	3	1	1005
35	2	44	Speaker2.jpg	OUT1.jpg	matching	2	2	1	1264
35	2	45	Speaker1.jpg	IN00.jpg	matching	2	2	1	1118
35	2	46	Speaker5.jpg	IN00.jpg	matching	2	2	1	758
35	2	47	Speaker3.jpg	OUT1.jpg	matching	2	2	1	705
35	2	48	Speaker1.jpg	OUT1.jpg	mismatching	3	3	1	1014
35	2	49	Speaker2.jpg	IN00.jpg	mismatching	3	3	1	965
35	2	50	Speaker1.jpg	IN00.jpg	matching	2	2	1	954
35	2	51	Speaker3.jpg	IN00.jpg	mismatching	3	3	1	975
35	2	52	Speaker3.jpg	OUT1.jpg	matching	2	2	1	782
35	2	53	Speaker5.jpg	IN00.jpg	matching	2	2	1	749
35	2	54	Speaker1.jpg	IN00.jpg	matching	2	2	1	833
35	2	55	Speaker1.jpg	IN00.jpg	matching	2	2	1	649
35	2	56	Speaker3.jpg	IN00.jpg	mismatching	3	3	1	732
35	2	57	Speaker3.jpg	IN00.jpg	mismatching	3	3	1	552
35	2	58	Speaker5.jpg	OUT1.jpg	mismatching	3	3	1	1244
35	2	59	Speaker1.jpg	OUT1.jpg	mismatching	3	3	1	1025
35	2	60	Speaker2.jpg	IN00.jpg	mismatching	3	3	1	986
35	2	61	Speaker2.jpg	IN00.jpg	mismatching	3	3	1	1010
35	2	62	Speaker3.jpg	IN00.jpg	mismatching	3	3	1	807
35	2	63	Speaker3.jpg	OUT1.jpg	matching	2	2	1	725
35	2	64	Speaker2.jpg	IN00.jpg	mismatching	3	3	1	743
35	2	65	Speaker2.jpg	OUT1.jpg	matching	2	2	1	756
35	2	66	Speaker1.jpg	IN00.jpg	matching	2	2	1	745
35	2	67	Speaker5.jpg	OUT1.jpg	mismatching	3	3	1	989
35	2	68	Speaker2.jpg	OUT1.jpg	matching	2	2	1	1042
35	2	69	Speaker5.jpg	OUT1.jpg	mismatching	3	3	1	796
35	2	70	Speaker5.jpg	IN00.jpg	matching	2	2	1	734
35	2	71	Speaker5.jpg	IN00.jpg	matching	2	2	1	718
35	2	72	Speaker5.jpg	OUT1.jpg	mismatching	3	3	1	815
35	2	73	Speaker2.jpg	OUT1.jpg	matching	2	2	1	870
35	2	74	Speaker5.jpg	IN00.jpg	matching	2	2	1	735
35	2	75	Speaker2.jpg	IN00.jpg	mismatching	3	3	1	710
35	2	76	Speaker1.jpg	IN00.jpg	matching	2	2	1	895
35	2	77	Speaker2.jpg	OUT1.jpg	matching	2	2	1	706
35	2	78	Speaker3.jpg	IN00.jpg	mismatching	3	3	1	836
35	2	79	Speaker2.jpg	IN00.jpg	mismatching	3	3	1	714
35	2	80	Speaker1.jpg	OUT1.jpg	mismatching	3	3	1	960
