Subject	Block	Trial	SpeakerPhoto	Logo	Condition	TargetButton	Button_Response	Accuracy	RTs
17	1	1	Speaker5.jpg	OUT1.jpg	matching	2	2	1	1645
17	1	2	Speaker2.jpg	IN00.jpg	mismatching	3	3	1	1269
17	1	3	Speaker3.jpg	OUT1.jpg	mismatching	3	3	1	963
17	1	4	Speaker2.jpg	IN00.jpg	mismatching	3	3	1	1199
17	1	5	Speaker3.jpg	OUT1.jpg	mismatching	3	3	1	1349
17	1	6	Speaker5.jpg	IN00.jpg	mismatching	3	3	1	884
17	1	7	Speaker1.jpg	OUT1.jpg	mismatching	3	3	1	1404
17	1	8	Speaker2.jpg	IN00.jpg	mismatching	3	3	1	947
17	1	9	Speaker2.jpg	OUT1.jpg	matching	2	2	1	729
17	1	10	Speaker5.jpg	IN00.jpg	mismatching	3	3	1	1060
17	1	11	Speaker2.jpg	IN00.jpg	mismatching	3	3	1	1281
17	1	12	Speaker2.jpg	IN00.jpg	mismatching	3	3	1	928
17	1	13	Speaker1.jpg	OUT1.jpg	mismatching	3	3	1	984
17	1	14	Speaker2.jpg	OUT1.jpg	matching	2	2	1	1374
17	1	15	Speaker3.jpg	IN00.jpg	matching	2	2	1	937
17	1	16	Speaker2.jpg	OUT1.jpg	matching	2	2	1	907
17	1	17	Speaker1.jpg	IN00.jpg	matching	2	2	1	1252
17	1	18	Speaker2.jpg	OUT1.jpg	matching	2	2	1	787
17	1	19	Speaker1.jpg	IN00.jpg	matching	2	2	1	710
17	1	20	Speaker2.jpg	IN00.jpg	mismatching	3	3	1	1099
17	1	21	Speaker5.jpg	IN00.jpg	mismatching	3	3	1	1387
17	1	22	Speaker3.jpg	OUT1.jpg	mismatching	3	3	1	943
17	1	23	Speaker5.jpg	OUT1.jpg	matching	2	2	1	1356
17	1	24	Speaker3.jpg	IN00.jpg	matching	2	2	1	848
17	1	25	Speaker3.jpg	IN00.jpg	matching	2	2	1	617
17	1	26	Speaker3.jpg	OUT1.jpg	mismatching	3	3	1	848
17	1	27	Speaker1.jpg	IN00.jpg	matching	2	2	1	1174
17	1	28	Speaker3.jpg	IN00.jpg	matching	2	2	1	708
17	1	29	Speaker3.jpg	OUT1.jpg	mismatching	3	3	1	1109
17	1	30	Speaker3.jpg	OUT1.jpg	mismatching	3	3	1	1076
17	1	31	Speaker3.jpg	OUT1.jpg	mismatching	3	3	1	925
17	1	32	Speaker1.jpg	IN00.jpg	matching	2	2	1	886
17	1	33	Speaker3.jpg	IN00.jpg	matching	2	2	1	825
17	1	34	Speaker5.jpg	IN00.jpg	mismatching	3	3	1	1186
17	1	35	Speaker3.jpg	IN00.jpg	matching	2	2	1	665
17	1	36	Speaker5.jpg	IN00.jpg	mismatching	3	3	1	1046
17	1	37	Speaker3.jpg	OUT1.jpg	mismatching	3	3	1	1136
17	1	38	Speaker5.jpg	OUT1.jpg	matching	2	2	1	1133
17	1	39	Speaker3.jpg	IN00.jpg	matching	2	2	1	942
17	1	40	Speaker5.jpg	OUT1.jpg	matching	2	2	1	776
17	1	41	Speaker1.jpg	IN00.jpg	matching	2	2	1	1013
17	1	42	Speaker1.jpg	IN00.jpg	matching	2	2	1	713
17	1	43	Speaker1.jpg	OUT1.jpg	mismatching	3	3	1	800
17	1	44	Speaker2.jpg	OUT1.jpg	matching	2	2	1	615
17	1	45	Speaker5.jpg	OUT1.jpg	matching	2	2	1	814
17	1	46	Speaker2.jpg	OUT1.jpg	matching	2	2	1	962
17	1	47	Speaker1.jpg	OUT1.jpg	mismatching	3	3	1	994
17	1	48	Speaker1.jpg	OUT1.jpg	mismatching	3	3	1	931
17	1	49	Speaker3.jpg	OUT1.jpg	mismatching	3	3	1	931
17	1	50	Speaker2.jpg	IN00.jpg	mismatching	3	3	1	804
17	1	51	Speaker1.jpg	OUT1.jpg	mismatching	3	3	1	1161
17	1	52	Speaker5.jpg	IN00.jpg	mismatching	3	3	1	831
17	1	53	Speaker5.jpg	IN00.jpg	mismatching	3	3	1	557
17	1	54	Speaker5.jpg	OUT1.jpg	matching	2	2	1	484
17	1	55	Speaker1.jpg	IN00.jpg	matching	2	2	1	773
17	1	56	Speaker2.jpg	OUT1.jpg	matching	2	2	1	784
17	1	57	Speaker5.jpg	OUT1.jpg	matching	2	2	1	948
17	1	58	Speaker2.jpg	IN00.jpg	mismatching	3	3	1	952
17	1	59	Speaker5.jpg	OUT1.jpg	matching	2	2	1	950
17	1	60	Speaker2.jpg	IN00.jpg	mismatching	3	3	1	934
17	1	61	Speaker2.jpg	OUT1.jpg	matching	2	2	1	669
17	1	62	Speaker5.jpg	IN00.jpg	mismatching	3	3	1	696
17	1	63	Speaker1.jpg	IN00.jpg	matching	2	2	1	1188
17	1	64	Speaker1.jpg	IN00.jpg	matching	2	2	1	577
17	1	65	Speaker3.jpg	IN00.jpg	matching	2	2	1	600
17	1	66	Speaker1.jpg	OUT1.jpg	mismatching	3	3	1	1189
17	1	67	Speaker3.jpg	IN00.jpg	matching	2	2	1	714
17	1	68	Speaker3.jpg	IN00.jpg	matching	2	2	1	875
17	1	69	Speaker1.jpg	OUT1.jpg	mismatching	3	3	1	1054
17	1	70	Speaker2.jpg	IN00.jpg	mismatching	3	3	1	1228
17	1	71	Speaker5.jpg	OUT1.jpg	matching	2	2	1	1314
17	1	72	Speaker5.jpg	OUT1.jpg	matching	2	2	1	725
17	1	73	Speaker2.jpg	OUT1.jpg	matching	2	2	1	893
17	1	74	Speaker1.jpg	OUT1.jpg	mismatching	3	3	1	1398
17	1	75	Speaker2.jpg	OUT1.jpg	matching	2	2	1	882
17	1	76	Speaker1.jpg	IN00.jpg	matching	2	2	1	1455
17	1	77	Speaker5.jpg	IN00.jpg	mismatching	3	3	1	1013
17	1	78	Speaker1.jpg	OUT1.jpg	mismatching	3	2	0	1126
17	1	79	Speaker5.jpg	IN00.jpg	mismatching	3	3	1	875
17	1	80	Speaker3.jpg	OUT1.jpg	mismatching	3	3	1	1651
17	2	1	Speaker5.jpg	OUT1.jpg	matching	2	2	1	810
17	2	2	Speaker1.jpg	IN00.jpg	matching	2	2	1	1082
17	2	3	Speaker2.jpg	IN00.jpg	mismatching	3	3	1	1078
17	2	4	Speaker3.jpg	IN00.jpg	matching	2	2	1	791
17	2	5	Speaker1.jpg	OUT1.jpg	mismatching	3	3	1	1158
17	2	6	Speaker5.jpg	OUT1.jpg	matching	2	2	1	1088
17	2	7	Speaker3.jpg	IN00.jpg	matching	2	2	1	778
17	2	8	Speaker2.jpg	OUT1.jpg	matching	2	2	1	814
17	2	9	Speaker5.jpg	IN00.jpg	mismatching	3	3	1	1306
17	2	10	Speaker3.jpg	IN00.jpg	matching	2	2	1	681
17	2	11	Speaker3.jpg	OUT1.jpg	mismatching	3	3	1	1231
17	2	12	Speaker3.jpg	OUT1.jpg	mismatching	3	3	1	1189
17	2	13	Speaker1.jpg	OUT1.jpg	mismatching	3	3	1	880
17	2	14	Speaker5.jpg	IN00.jpg	mismatching	3	3	1	846
17	2	15	Speaker1.jpg	OUT1.jpg	mismatching	3	3	1	829
17	2	16	Speaker2.jpg	IN00.jpg	mismatching	3	3	1	959
17	2	17	Speaker5.jpg	OUT1.jpg	matching	2	2	1	819
17	2	18	Speaker1.jpg	OUT1.jpg	mismatching	3	3	1	1249
17	2	19	Speaker5.jpg	OUT1.jpg	matching	2	2	1	973
17	2	20	Speaker1.jpg	IN00.jpg	matching	2	2	1	1039
17	2	21	Speaker2.jpg	IN00.jpg	mismatching	3	3	1	1140
17	2	22	Speaker2.jpg	IN00.jpg	mismatching	3	3	1	1631
17	2	23	Speaker2.jpg	IN00.jpg	mismatching	3	3	1	733
17	2	24	Speaker2.jpg	IN00.jpg	mismatching	3	3	1	459
17	2	25	Speaker2.jpg	OUT1.jpg	matching	2	2	1	661
17	2	26	Speaker1.jpg	IN00.jpg	matching	2	2	1	1375
17	2	27	Speaker3.jpg	IN00.jpg	matching	2	2	1	813
17	2	28	Speaker2.jpg	IN00.jpg	mismatching	3	3	1	854
17	2	29	Speaker3.jpg	OUT1.jpg	mismatching	3	3	1	1002
17	2	30	Speaker5.jpg	OUT1.jpg	matching	2	2	1	1148
17	2	31	Speaker1.jpg	OUT1.jpg	mismatching	3	3	1	1380
17	2	32	Speaker5.jpg	IN00.jpg	mismatching	3	3	1	1060
17	2	33	Speaker2.jpg	IN00.jpg	mismatching	3	3	1	1066
17	2	34	Speaker3.jpg	OUT1.jpg	mismatching	3	3	1	1053
17	2	35	Speaker2.jpg	OUT1.jpg	matching	2	2	1	848
17	2	36	Speaker2.jpg	IN00.jpg	mismatching	3	3	1	961
17	2	37	Speaker5.jpg	IN00.jpg	mismatching	3	3	1	1057
17	2	38	Speaker3.jpg	OUT1.jpg	mismatching	3	3	1	829
17	2	39	Speaker5.jpg	OUT1.jpg	matching	2	2	1	828
17	2	40	Speaker2.jpg	OUT1.jpg	matching	2	2	1	883
17	2	41	Speaker3.jpg	IN00.jpg	matching	2	2	1	882
17	2	42	Speaker2.jpg	OUT1.jpg	matching	2	2	1	785
17	2	43	Speaker3.jpg	OUT1.jpg	mismatching	3	3	1	950
17	2	44	Speaker1.jpg	IN00.jpg	matching	2	2	1	963
17	2	45	Speaker5.jpg	IN00.jpg	mismatching	3	3	1	800
17	2	46	Speaker1.jpg	IN00.jpg	matching	2	2	1	935
17	2	47	Speaker5.jpg	OUT1.jpg	matching	2	2	1	1320
17	2	48	Speaker1.jpg	OUT1.jpg	mismatching	3	3	1	1074
17	2	49	Speaker1.jpg	IN00.jpg	matching	2	2	1	809
17	2	50	Speaker3.jpg	IN00.jpg	matching	2	2	1	822
17	2	51	Speaker3.jpg	OUT1.jpg	mismatching	3	3	1	723
17	2	52	Speaker5.jpg	IN00.jpg	mismatching	3	3	1	1127
17	2	53	Speaker1.jpg	IN00.jpg	matching	2	2	1	960
17	2	54	Speaker3.jpg	OUT1.jpg	mismatching	3	3	1	896
17	2	55	Speaker5.jpg	OUT1.jpg	matching	2	2	1	705
17	2	56	Speaker2.jpg	OUT1.jpg	matching	2	2	1	736
17	2	57	Speaker5.jpg	IN00.jpg	mismatching	3	3	1	918
17	2	58	Speaker3.jpg	IN00.jpg	matching	2	2	1	1942
17	2	59	Speaker5.jpg	IN00.jpg	mismatching	3	3	1	786
17	2	60	Speaker2.jpg	OUT1.jpg	matching	2	2	1	822
17	2	61	Speaker1.jpg	IN00.jpg	matching	2	2	1	719
17	2	62	Speaker3.jpg	IN00.jpg	matching	2	2	1	696
17	2	63	Speaker3.jpg	IN00.jpg	matching	2	2	1	569
17	2	64	Speaker2.jpg	OUT1.jpg	matching	2	2	1	1022
17	2	65	Speaker1.jpg	OUT1.jpg	mismatching	3	3	1	951
17	2	66	Speaker1.jpg	OUT1.jpg	mismatching	3	3	1	1125
17	2	67	Speaker2.jpg	OUT1.jpg	matching	2	2	1	880
17	2	68	Speaker3.jpg	IN00.jpg	matching	2	2	1	845
17	2	69	Speaker1.jpg	OUT1.jpg	mismatching	3	3	1	1218
17	2	70	Speaker5.jpg	IN00.jpg	mismatching	3	3	1	1147
17	2	71	Speaker1.jpg	IN00.jpg	matching	2	2	1	865
17	2	72	Speaker2.jpg	IN00.jpg	mismatching	3	3	1	1100
17	2	73	Speaker3.jpg	OUT1.jpg	mismatching	3	3	1	1327
17	2	74	Speaker1.jpg	OUT1.jpg	mismatching	3	3	1	1073
17	2	75	Speaker5.jpg	IN00.jpg	mismatching	3	3	1	1565
17	2	76	Speaker2.jpg	OUT1.jpg	matching	2	2	1	635
17	2	77	Speaker3.jpg	OUT1.jpg	mismatching	3	3	1	686
17	2	78	Speaker5.jpg	OUT1.jpg	matching	2	2	1	931
17	2	79	Speaker5.jpg	OUT1.jpg	matching	2	2	1	743
17	2	80	Speaker1.jpg	IN00.jpg	matching	2	2	1	712
