Subject	Block	Trial	SpeakerPhoto	Logo	Condition	TargetButton	Button_Response	Accuracy	RTs
5	1	1	Speaker1.jpg	OUT1.jpg	matching	2	2	1	830
5	1	2	Speaker1.jpg	IN00.jpg	mismatching	3	3	1	917
5	1	3	Speaker1.jpg	OUT1.jpg	matching	2	2	1	782
5	1	4	Speaker3.jpg	IN00.jpg	matching	2	2	1	959
5	1	5	Speaker1.jpg	OUT1.jpg	matching	2	2	1	930
5	1	6	Speaker5.jpg	OUT1.jpg	mismatching	3	3	1	1115
5	1	7	Speaker3.jpg	IN00.jpg	matching	2	2	1	1476
5	1	8	Speaker3.jpg	OUT1.jpg	mismatching	3	3	1	896
5	1	9	Speaker3.jpg	OUT1.jpg	mismatching	3	3	1	763
5	1	10	Speaker1.jpg	IN00.jpg	mismatching	3	3	1	1478
5	1	11	Speaker3.jpg	IN00.jpg	matching	2	2	1	836
5	1	12	Speaker3.jpg	OUT1.jpg	mismatching	3	3	1	857
5	1	13	Speaker2.jpg	OUT1.jpg	matching	2	2	1	1123
5	1	14	Speaker2.jpg	OUT1.jpg	matching	2	2	1	802
5	1	15	Speaker3.jpg	IN00.jpg	matching	2	2	1	854
5	1	16	Speaker5.jpg	OUT1.jpg	mismatching	3	3	1	865
5	1	17	Speaker5.jpg	OUT1.jpg	mismatching	3	3	1	862
5	1	18	Speaker3.jpg	IN00.jpg	matching	2	2	1	972
5	1	19	Speaker3.jpg	OUT1.jpg	mismatching	3	3	1	886
5	1	20	Speaker3.jpg	IN00.jpg	matching	2	2	1	834
5	1	21	Speaker3.jpg	IN00.jpg	matching	2	2	1	647
5	1	22	Speaker5.jpg	OUT1.jpg	mismatching	3	3	1	786
5	1	23	Speaker2.jpg	IN00.jpg	mismatching	3	2	0	921
5	1	24	Speaker5.jpg	OUT1.jpg	mismatching	3	3	1	811
5	1	25	Speaker3.jpg	OUT1.jpg	mismatching	3	3	1	781
5	1	26	Speaker1.jpg	IN00.jpg	mismatching	3	3	1	972
5	1	27	Speaker1.jpg	OUT1.jpg	matching	2	2	1	806
5	1	28	Speaker5.jpg	IN00.jpg	matching	2	2	1	1062
5	1	29	Speaker1.jpg	OUT1.jpg	matching	2	2	1	867
5	1	30	Speaker2.jpg	OUT1.jpg	matching	2	2	1	762
5	1	31	Speaker1.jpg	IN00.jpg	mismatching	3	3	1	965
5	1	32	Speaker2.jpg	IN00.jpg	mismatching	3	3	1	802
5	1	33	Speaker1.jpg	IN00.jpg	mismatching	3	3	1	948
5	1	34	Speaker5.jpg	OUT1.jpg	mismatching	3	3	1	1009
5	1	35	Speaker5.jpg	OUT1.jpg	mismatching	3	3	1	851
5	1	36	Speaker2.jpg	IN00.jpg	mismatching	3	3	1	870
5	1	37	Speaker5.jpg	IN00.jpg	matching	2	2	1	973
5	1	38	Speaker2.jpg	IN00.jpg	mismatching	3	3	1	776
5	1	39	Speaker3.jpg	OUT1.jpg	mismatching	3	3	1	764
5	1	40	Speaker1.jpg	IN00.jpg	mismatching	3	3	1	964
5	1	41	Speaker3.jpg	IN00.jpg	matching	2	2	1	886
5	1	42	Speaker3.jpg	OUT1.jpg	mismatching	3	3	1	756
5	1	43	Speaker1.jpg	OUT1.jpg	matching	2	2	1	983
5	1	44	Speaker3.jpg	OUT1.jpg	mismatching	3	3	1	800
5	1	45	Speaker3.jpg	IN00.jpg	matching	2	2	1	806
5	1	46	Speaker2.jpg	OUT1.jpg	matching	2	3	0	756
5	1	47	Speaker2.jpg	IN00.jpg	mismatching	3	2	0	895
5	1	48	Speaker1.jpg	IN00.jpg	mismatching	3	3	1	1042
5	1	49	Speaker2.jpg	IN00.jpg	mismatching	3	3	1	824
5	1	50	Speaker1.jpg	OUT1.jpg	matching	2	2	1	1092
5	1	51	Speaker3.jpg	IN00.jpg	matching	2	2	1	858
5	1	52	Speaker2.jpg	IN00.jpg	mismatching	3	3	1	1069
5	1	53	Speaker1.jpg	IN00.jpg	mismatching	3	3	1	1029
5	1	54	Speaker1.jpg	OUT1.jpg	matching	2	2	1	829
5	1	55	Speaker5.jpg	OUT1.jpg	mismatching	3	3	1	963
5	1	56	Speaker5.jpg	OUT1.jpg	mismatching	3	3	1	771
5	1	57	Speaker2.jpg	OUT1.jpg	matching	2	2	1	916
5	1	58	Speaker3.jpg	OUT1.jpg	mismatching	3	3	1	836
5	1	59	Speaker5.jpg	IN00.jpg	matching	2	2	1	754
5	1	60	Speaker2.jpg	OUT1.jpg	matching	2	2	1	977
5	1	61	Speaker1.jpg	OUT1.jpg	matching	2	2	1	808
5	1	62	Speaker5.jpg	OUT1.jpg	mismatching	3	3	1	1056
5	1	63	Speaker2.jpg	OUT1.jpg	matching	2	2	1	839
5	1	64	Speaker1.jpg	OUT1.jpg	matching	2	2	1	763
5	1	65	Speaker5.jpg	IN00.jpg	matching	2	2	1	876
5	1	66	Speaker5.jpg	IN00.jpg	matching	2	2	1	978
5	1	67	Speaker1.jpg	IN00.jpg	mismatching	3	3	1	713
5	1	68	Speaker2.jpg	OUT1.jpg	matching	2	2	1	712
5	1	69	Speaker2.jpg	OUT1.jpg	matching	2	2	1	727
5	1	70	Speaker2.jpg	IN00.jpg	mismatching	3	3	1	900
5	1	71	Speaker5.jpg	IN00.jpg	matching	2	2	1	987
5	1	72	Speaker5.jpg	IN00.jpg	matching	2	2	1	802
5	1	73	Speaker5.jpg	IN00.jpg	matching	2	2	1	541
5	1	74	Speaker3.jpg	OUT1.jpg	mismatching	3	3	1	852
5	1	75	Speaker2.jpg	IN00.jpg	mismatching	3	3	1	1084
5	1	76	Speaker2.jpg	OUT1.jpg	matching	2	3	0	648
5	1	77	Speaker1.jpg	IN00.jpg	mismatching	3	3	1	1063
5	1	78	Speaker5.jpg	IN00.jpg	matching	2	2	1	819
5	1	79	Speaker5.jpg	IN00.jpg	matching	2	2	1	693
5	1	80	Speaker2.jpg	IN00.jpg	mismatching	3	3	1	1070
5	2	1	Speaker3.jpg	OUT1.jpg	mismatching	3	2	0	983
5	2	2	Speaker2.jpg	OUT1.jpg	matching	2	2	1	830
5	2	3	Speaker1.jpg	IN00.jpg	mismatching	3	3	1	774
5	2	4	Speaker2.jpg	OUT1.jpg	matching	2	2	1	780
5	2	5	Speaker2.jpg	OUT1.jpg	matching	2	2	1	500
5	2	6	Speaker3.jpg	OUT1.jpg	mismatching	3	3	1	715
5	2	7	Speaker2.jpg	IN00.jpg	mismatching	3	2	0	790
5	2	8	Speaker2.jpg	OUT1.jpg	matching	2	2	1	755
5	2	9	Speaker5.jpg	OUT1.jpg	mismatching	3	3	1	953
5	2	10	Speaker1.jpg	IN00.jpg	mismatching	3	3	1	1021
5	2	11	Speaker2.jpg	IN00.jpg	mismatching	3	3	1	751
5	2	12	Speaker5.jpg	IN00.jpg	matching	2	2	1	1029
5	2	13	Speaker3.jpg	OUT1.jpg	mismatching	3	2	0	939
5	2	14	Speaker1.jpg	OUT1.jpg	matching	2	2	1	1143
5	2	15	Speaker5.jpg	OUT1.jpg	mismatching	3	3	1	895
5	2	16	Speaker1.jpg	IN00.jpg	mismatching	3	3	1	1043
5	2	17	Speaker1.jpg	OUT1.jpg	matching	2	2	1	820
5	2	18	Speaker2.jpg	OUT1.jpg	matching	2	2	1	1237
5	2	19	Speaker1.jpg	OUT1.jpg	matching	2	2	1	828
5	2	20	Speaker3.jpg	IN00.jpg	matching	2	2	1	725
5	2	21	Speaker1.jpg	IN00.jpg	mismatching	3	3	1	807
5	2	22	Speaker2.jpg	IN00.jpg	mismatching	3	3	1	931
5	2	23	Speaker2.jpg	OUT1.jpg	matching	2	2	1	797
5	2	24	Speaker3.jpg	IN00.jpg	matching	2	2	1	921
5	2	25	Speaker3.jpg	OUT1.jpg	mismatching	3	3	1	777
5	2	26	Speaker3.jpg	OUT1.jpg	mismatching	3	3	1	1010
5	2	27	Speaker5.jpg	OUT1.jpg	mismatching	3	3	1	734
5	2	28	Speaker1.jpg	IN00.jpg	mismatching	3	3	1	773
5	2	29	Speaker3.jpg	IN00.jpg	matching	2	2	1	875
5	2	30	Speaker5.jpg	IN00.jpg	matching	2	2	1	1017
5	2	31	Speaker1.jpg	OUT1.jpg	matching	2	2	1	842
5	2	32	Speaker1.jpg	OUT1.jpg	matching	2	2	1	925
5	2	33	Speaker3.jpg	OUT1.jpg	mismatching	3	3	1	848
5	2	34	Speaker5.jpg	OUT1.jpg	mismatching	3	3	1	813
5	2	35	Speaker5.jpg	IN00.jpg	matching	2	2	1	701
5	2	36	Speaker1.jpg	IN00.jpg	mismatching	3	3	1	976
5	2	37	Speaker1.jpg	IN00.jpg	mismatching	3	3	1	782
5	2	38	Speaker2.jpg	IN00.jpg	mismatching	3	3	1	818
5	2	39	Speaker2.jpg	OUT1.jpg	matching	2	2	1	841
5	2	40	Speaker2.jpg	IN00.jpg	mismatching	3	3	1	759
5	2	41	Speaker3.jpg	IN00.jpg	matching	2	2	1	953
5	2	42	Speaker1.jpg	OUT1.jpg	matching	2	2	1	956
5	2	43	Speaker3.jpg	IN00.jpg	matching	2	2	1	776
5	2	44	Speaker3.jpg	IN00.jpg	matching	2	2	1	824
5	2	45	Speaker5.jpg	IN00.jpg	matching	2	2	1	710
5	2	46	Speaker3.jpg	OUT1.jpg	mismatching	3	3	1	782
5	2	47	Speaker5.jpg	OUT1.jpg	mismatching	3	3	1	908
5	2	48	Speaker5.jpg	IN00.jpg	matching	2	2	1	630
5	2	49	Speaker5.jpg	IN00.jpg	matching	2	2	1	746
5	2	50	Speaker3.jpg	IN00.jpg	matching	2	2	1	892
5	2	51	Speaker3.jpg	IN00.jpg	matching	2	2	1	928
5	2	52	Speaker5.jpg	OUT1.jpg	mismatching	3	3	1	771
5	2	53	Speaker5.jpg	OUT1.jpg	mismatching	3	3	1	812
5	2	54	Speaker1.jpg	IN00.jpg	mismatching	3	3	1	1318
5	2	55	Speaker1.jpg	OUT1.jpg	matching	2	2	1	839
5	2	56	Speaker5.jpg	OUT1.jpg	mismatching	3	3	1	791
5	2	57	Speaker2.jpg	OUT1.jpg	matching	2	2	1	1040
5	2	58	Speaker1.jpg	OUT1.jpg	matching	2	2	1	746
5	2	59	Speaker2.jpg	IN00.jpg	mismatching	3	3	1	1062
5	2	60	Speaker5.jpg	IN00.jpg	matching	2	2	1	799
5	2	61	Speaker3.jpg	IN00.jpg	matching	2	2	1	758
5	2	62	Speaker2.jpg	IN00.jpg	mismatching	3	3	1	1078
5	2	63	Speaker5.jpg	OUT1.jpg	mismatching	3	3	1	804
5	2	64	Speaker3.jpg	OUT1.jpg	mismatching	3	3	1	782
5	2	65	Speaker1.jpg	OUT1.jpg	matching	2	2	1	781
5	2	66	Speaker5.jpg	IN00.jpg	matching	2	2	1	1208
5	2	67	Speaker1.jpg	OUT1.jpg	matching	2	2	1	806
5	2	68	Speaker3.jpg	OUT1.jpg	mismatching	3	3	1	902
5	2	69	Speaker1.jpg	IN00.jpg	mismatching	3	3	1	810
5	2	70	Speaker5.jpg	IN00.jpg	matching	2	2	1	833
5	2	71	Speaker5.jpg	IN00.jpg	matching	2	2	1	769
5	2	72	Speaker5.jpg	OUT1.jpg	mismatching	3	3	1	651
5	2	73	Speaker2.jpg	OUT1.jpg	matching	2	2	1	837
5	2	74	Speaker2.jpg	IN00.jpg	mismatching	3	3	1	610
5	2	75	Speaker2.jpg	OUT1.jpg	matching	2	2	1	751
5	2	76	Speaker2.jpg	IN00.jpg	mismatching	3	3	1	571
5	2	77	Speaker3.jpg	IN00.jpg	matching	2	2	1	750
5	2	78	Speaker2.jpg	IN00.jpg	mismatching	3	3	1	706
5	2	79	Speaker3.jpg	OUT1.jpg	mismatching	3	3	1	1127
5	2	80	Speaker1.jpg	IN00.jpg	mismatching	3	3	1	857
